<?xml version="1.0" encoding="UTF-8"?>
<ODM xmlns="http://www.cdisc.org/ns/odm/v1.3" FileOID="CRF" FileType="Snapshot"
     CreationDateTime="2020-05-07T12:44:01+02:00"
     ODMVersion="1.3.2"
     Originator="Formedix"
     SourceSystem="Data Acquisition Designer"
     SourceSystemVersion="4.8.0">
   <Study OID="S.0000">
      <GlobalVariables>
         <StudyName>Test Trial abcd</StudyName>
         <StudyDescription>
           Lorem ipsum dolor sit amet consectetuer odio id et turpis vitae. Est risus congue pretium non Vestibulum ante dui risus Nam convallis. Semper vitae Sed lacus pretium ut tortor tempus felis massa pellentesque. Congue a odio ut Aenean libero hendrerit eros cursus arcu quis. Urna velit consequat ipsum Sed Aliquam.
         </StudyDescription>
         <ProtocolName>Test Trial</ProtocolName>
      </GlobalVariables>
      <BasicDefinitions/>
      <MetaDataVersion OID="MDV.0000" Name="MDR">
         <FormDef OID="f.suppdm2" Name="AE/CM/CP/Other events involving IMP Events"
                  Repeating="No">
            <Description>
               <TranslatedText>LEO Note: Items to be adjusted to protocol</TranslatedText>
            </Description>
            <ItemGroupRef ItemGroupOID="g.suppdm10" OrderNumber="1" Mandatory="Yes"/>
            <Alias Name="Design note: This form is only used in adolescent trials, where a subject might reach a country specific legal age that require them to sign an informed consent during the conduct of the trial."
                   Context="Design note"/>
         </FormDef>
         <FormDef OID="f.dm" Name="Demographics" Repeating="No">
            <ItemGroupRef ItemGroupOID="g.dm5" Mandatory="Yes" OrderNumber="1"/>
            <ItemGroupRef ItemGroupOID="g.suppdm12" Mandatory="Yes" OrderNumber="2"/>
            <ItemGroupRef ItemGroupOID="g.dm" Mandatory="Yes" OrderNumber="3"/>
            <ItemGroupRef ItemGroupOID="g.suppdm2" Mandatory="Yes" OrderNumber="4"/>
         </FormDef>
         <FormDef OID="f.vs2" Name="Height and weight" Repeating="No">
            <ItemGroupRef ItemGroupOID="g.vs2" OrderNumber="1" Mandatory="Yes"/>
         </FormDef>
         <FormDef OID="f.rplb" Name="Urine pregnancy test " Repeating="No">
            <ItemGroupRef ItemGroupOID="g.rp" OrderNumber="1" Mandatory="Yes"/>
            <ItemGroupRef ItemGroupOID="g.lb3" OrderNumber="2" Mandatory="Yes"/>
         </FormDef>
         <FormDef OID="f.ae" Name="Adverse event" Repeating="No">
            <ItemGroupRef ItemGroupOID="g.ae7" OrderNumber="1" Mandatory="Yes"/>
            <ItemGroupRef ItemGroupOID="g.ae2" OrderNumber="2" Mandatory="Yes"/>
            <ItemGroupRef ItemGroupOID="g.suppae8" OrderNumber="3" Mandatory="Yes"/>
            <ItemGroupRef ItemGroupOID="g.ae8" OrderNumber="4" Mandatory="Yes"/>
            <ItemGroupRef ItemGroupOID="g.suppae" OrderNumber="5" Mandatory="Yes"/>
            <ItemGroupRef ItemGroupOID="g.ae" OrderNumber="6" Mandatory="Yes"/>
            <ItemGroupRef ItemGroupOID="g.suppae6" OrderNumber="7" Mandatory="Yes"/>
            <ItemGroupRef ItemGroupOID="g.suppae7" OrderNumber="8" Mandatory="Yes"/>
            <ItemGroupRef ItemGroupOID="g.suppae4" OrderNumber="9" Mandatory="Yes"/>
            <ItemGroupRef ItemGroupOID="g.ae4" OrderNumber="10" Mandatory="Yes"/>
            <ItemGroupRef ItemGroupOID="g.suppae2" OrderNumber="11" Mandatory="Yes"/>
            <ItemGroupRef ItemGroupOID="g.ae3" OrderNumber="12" Mandatory="Yes"/>
            <ItemGroupRef ItemGroupOID="g.ae6" OrderNumber="13" Mandatory="Yes"/>
            <ItemGroupRef ItemGroupOID="g.ae5" OrderNumber="14" Mandatory="Yes"/>
            <ItemGroupRef ItemGroupOID="g.suppae3" OrderNumber="15" Mandatory="Yes"/>
         </FormDef>
         <FormDef OID="f.lb2" Name="Urine dipstick" Repeating="No">
            <ItemGroupRef ItemGroupOID="g.lb" OrderNumber="1" Mandatory="Yes"/>
         </FormDef>
         <FormDef OID="f.cm" Name="Concomitant medication" Repeating="No">
            <ItemGroupRef ItemGroupOID="g.cm" OrderNumber="1" Mandatory="Yes"/>
            <ItemGroupRef ItemGroupOID="g.suppcm13" OrderNumber="2" Mandatory="Yes"/>
            <ItemGroupRef ItemGroupOID="g.cm2" OrderNumber="3" Mandatory="Yes"/>
            <ItemGroupRef ItemGroupOID="g.suppcm3" OrderNumber="4" Mandatory="Yes"/>
            <ItemGroupRef ItemGroupOID="g.cm3" OrderNumber="5" Mandatory="Yes"/>
            <ItemGroupRef ItemGroupOID="g.suppcm5" OrderNumber="6" Mandatory="Yes"/>
            <ItemGroupRef ItemGroupOID="g.cm6" OrderNumber="7" Mandatory="Yes"/>
            <ItemGroupRef ItemGroupOID="g.cm9" OrderNumber="8" Mandatory="Yes"/>
            <ItemGroupRef ItemGroupOID="g.suppcm7" OrderNumber="9" Mandatory="Yes"/>
            <ItemGroupRef ItemGroupOID="g.cm7" OrderNumber="10" Mandatory="Yes"/>
         </FormDef>
         <FormDef OID="f.dslb" Name="Blood biomarkers" Repeating="No">
            <ItemGroupRef ItemGroupOID="g.ds20" OrderNumber="1" Mandatory="Yes"/>
            <ItemGroupRef ItemGroupOID="g.lb2" OrderNumber="2" Mandatory="Yes"/>
         </FormDef>
         <FormDef OID="f.pr" Name="Concurrent procedures" Repeating="No">
            <ItemGroupRef ItemGroupOID="g.pr" OrderNumber="1" Mandatory="Yes"/>
            <ItemGroupRef ItemGroupOID="g.supppr" OrderNumber="2" Mandatory="Yes"/>
         </FormDef>
         <FormDef OID="f.lb3" Name="Central laboratory " Repeating="No">
            <ItemGroupRef ItemGroupOID="g.lb4" OrderNumber="1" Mandatory="Yes"/>
         </FormDef>
         <FormDef OID="f.eg" Name="ECG" Repeating="No">
            <ItemGroupRef ItemGroupOID="g.eg" OrderNumber="1" Mandatory="Yes"/>
         </FormDef>
         <ItemGroupDef OID="g.suppdm10" Name="AE/CM/CP/Other events involving IMP Events"
                       Repeating="No"
                       Domain="SUPPDM">
            <ItemRef ItemOID="i.aeyn2" Mandatory="Yes" OrderNumber="1"/>
            <ItemRef ItemOID="i.cmyn2" Mandatory="Yes" OrderNumber="2"/>
            <ItemRef ItemOID="i.pryn2" Mandatory="Yes" OrderNumber="3"/>
            <ItemRef ItemOID="I.0086.1396" Mandatory="Yes" OrderNumber="4"/>
         </ItemGroupDef>
         <ItemGroupDef OID="g.eg" Name="ECG" Repeating="No" Domain="EG" Purpose="Tabulation">
            <ItemRef ItemOID="i.egperf" Mandatory="Yes" OrderNumber="1"/>
            <ItemRef ItemOID="i.egreasnd" Mandatory="Yes" OrderNumber="2"/>
            <ItemRef ItemOID="i.egdat" Mandatory="No" OrderNumber="3"/>
            <ItemRef ItemOID="i.egorres" Mandatory="No" OrderNumber="4"/>
         </ItemGroupDef>
         <ItemGroupDef OID="g.ae6" Name="SAE criteria" Repeating="No" Domain="AE" Purpose="Tabulation">
            <Description>
               <TranslatedText>Internal note: The items 'Admission date' and 'Discharge date' is not collected on the CRF as these items are collected on the SAE form</TranslatedText>
            </Description>
            <ItemRef ItemOID="i.saecriteria" Mandatory="Yes" OrderNumber="1"/>
         </ItemGroupDef>
         <ItemGroupDef OID="g.cm" Name="Concomitant Medication" Repeating="No" Domain="CM"
                       Purpose="Tabulation">
            <ItemRef ItemOID="i.cmspid" Mandatory="Yes" OrderNumber="1"/>
            <ItemRef ItemOID="i.cmtrt2" Mandatory="Yes" OrderNumber="2"/>
         </ItemGroupDef>
         <ItemGroupDef OID="g.supppr" Name="Inside Treatment Area?" Repeating="No" Domain="SUPPPR">
            <ItemRef ItemOID="i.pr_intrtar" Mandatory="Yes" OrderNumber="1"/>
         </ItemGroupDef>
         <ItemGroupDef OID="g.suppcm3" Name="Other unit" Repeating="No" Domain="SUPPCM">
            <ItemRef ItemOID="i.cm_dosuoth2" Mandatory="Yes" OrderNumber="1"/>
         </ItemGroupDef>
         <ItemGroupDef OID="g.cm6" Name="CM Route" Repeating="No" Domain="CM" Purpose="Tabulation">
            <ItemRef ItemOID="i.cmroute3" Mandatory="Yes" OrderNumber="1"/>
         </ItemGroupDef>
         <ItemGroupDef OID="g.ae8" Name="Location and start date of AE" Repeating="No" Domain="AE"
                       Purpose="Tabulation">
            <ItemRef ItemOID="i.aeloc2" Mandatory="Yes" OrderNumber="1"/>
            <ItemRef ItemOID="i.aestdat" Mandatory="Yes" OrderNumber="2"/>
         </ItemGroupDef>
         <ItemGroupDef OID="g.suppae6" Name="AE related to IMP other" Repeating="No" Domain="SUPPAE">
            <ItemRef ItemOID="i.ae_reltdap" Mandatory="Yes" OrderNumber="1"/>
            <ItemRef ItemOID="i.ae_relmeni" Mandatory="Yes" OrderNumber="2"/>
         </ItemGroupDef>
         <ItemGroupDef OID="g.suppae2" Name="Withdrawn from study due to this AE?" Repeating="No"
                       Domain="SUPPAE">
            <ItemRef ItemOID="i.ae_aeawdr" Mandatory="Yes" OrderNumber="1"/>
         </ItemGroupDef>
         <ItemGroupDef OID="g.cm9" Name="Dose form" Repeating="No" Domain="CM" Purpose="Tabulation">
            <ItemRef ItemOID="i.cmdosfrm" Mandatory="Yes" OrderNumber="1"/>
         </ItemGroupDef>
         <ItemGroupDef OID="g.suppae8" Name="Location of AE relative to treatment area" Repeating="No"
                       Domain="SUPPAE">
            <ItemRef ItemOID="i.ae_aereltrt" Mandatory="Yes" OrderNumber="1"/>
         </ItemGroupDef>
         <ItemGroupDef OID="g.suppcm13" Name="Relapse Med" Repeating="No" Domain="SUPPCM">
            <ItemRef ItemOID="i.rescmed" Mandatory="Yes" OrderNumber="1"/>
         </ItemGroupDef>
         <ItemGroupDef OID="g.suppcm5" Name="If Other specify" Repeating="No" Domain="SUPPCM">
            <ItemRef ItemOID="i.cm_frqoth" Mandatory="Yes" OrderNumber="1"/>
         </ItemGroupDef>
         <ItemGroupDef OID="g.suppae" Name="Started before the first administration of IMP"
                       Repeating="No"
                       Domain="SUPPAE">
            <ItemRef ItemOID="i.ae_occur" Mandatory="Yes" OrderNumber="1"/>
            <ItemRef ItemOID="i.ae_aetrtem" Mandatory="Yes" OrderNumber="2"/>
            <ItemRef ItemOID="i.ae_aeoccur" Mandatory="Yes" OrderNumber="3"/>
         </ItemGroupDef>
         <ItemGroupDef OID="g.suppae3" Name="AESI" Repeating="No" Domain="SUPPAE">
            <ItemRef ItemOID="i.ae_aesi2" Mandatory="Yes" OrderNumber="1"/>
         </ItemGroupDef>
         <ItemGroupDef OID="g.ae4" Name="Other action taken" Repeating="No" Domain="AE"
                       Purpose="Tabulation">
            <ItemRef ItemOID="i.aeacnoth" Mandatory="Yes" OrderNumber="1"/>
         </ItemGroupDef>
         <ItemGroupDef OID="g.ae5" Name="Outcome" Repeating="No" Domain="AE" Purpose="Tabulation">
            <ItemRef ItemOID="i.aeout" Mandatory="Yes" OrderNumber="1"/>
         </ItemGroupDef>
         <ItemGroupDef OID="g.ae7" Name="Adverse Event" Repeating="No" Domain="AE"
                       Purpose="Tabulation">
            <ItemRef ItemOID="i.aespid" Mandatory="Yes" OrderNumber="1"/>
         </ItemGroupDef>
         <ItemGroupDef OID="g.suppcm7" Name="Other specify" Repeating="No" Domain="SUPPCM">
            <ItemRef ItemOID="i.cm_frmoth" Mandatory="Yes" OrderNumber="1"/>
         </ItemGroupDef>
         <ItemGroupDef OID="g.ae2" Name="Adverse Event" Repeating="No" Domain="AE"
                       Purpose="Tabulation">
            <ItemRef ItemOID="i.aeterm" Mandatory="Yes" OrderNumber="1"/>
         </ItemGroupDef>
         <ItemGroupDef OID="g.ae" Name="Ae continue" Repeating="No" Domain="AE" Purpose="Tabulation">
            <ItemRef ItemOID="i.aeendat" Mandatory="Yes" OrderNumber="1"/>
            <ItemRef ItemOID="i.aeenrtpt" Mandatory="Yes" OrderNumber="2"/>
            <ItemRef ItemOID="i.aesev" Mandatory="Yes" OrderNumber="3"/>
            <ItemRef ItemOID="i.aerel" Mandatory="Yes" OrderNumber="4"/>
            <ItemRef ItemOID="i.aeacn" Mandatory="Yes" OrderNumber="5"/>
            <ItemRef ItemOID="i.aerel2" Mandatory="Yes" OrderNumber="6"/>
         </ItemGroupDef>
         <ItemGroupDef OID="g.suppae7" Name="AE start at the same day as CYP cocktail was given?"
                       Repeating="No"
                       Domain="SUPPAE">
            <ItemRef ItemOID="i.ae_cytrtem" Mandatory="Yes" OrderNumber="1"/>
            <ItemRef ItemOID="i.ae_aestdtc" Mandatory="Yes" OrderNumber="2"/>
            <ItemRef ItemOID="i.ae_aestdtc2" Mandatory="Yes" OrderNumber="3"/>
         </ItemGroupDef>
         <ItemGroupDef OID="g.cm7" Name="Start, stop, ongoing" Repeating="No" Domain="CM"
                       Purpose="Tabulation">
            <ItemRef ItemOID="i.cmstdat" Mandatory="Yes" OrderNumber="1"/>
            <ItemRef ItemOID="i.cmendat2" Mandatory="Yes" OrderNumber="2"/>
            <ItemRef ItemOID="i.cmenrtpt" Mandatory="Yes" OrderNumber="3"/>
         </ItemGroupDef>
         <ItemGroupDef OID="g.cm2" Name="Concomitant Medication 2" Repeating="No" Domain="CM"
                       Purpose="Tabulation">
            <ItemRef ItemOID="i.cmindc" Mandatory="Yes" OrderNumber="1"/>
            <ItemRef ItemOID="i.cmdostxt3" Mandatory="Yes" OrderNumber="2"/>
            <ItemRef ItemOID="i.cmdosu3" Mandatory="Yes" OrderNumber="3"/>
         </ItemGroupDef>
         <ItemGroupDef OID="g.ae3" Name="AE serious" Repeating="No" Domain="AE" Purpose="Tabulation">
            <ItemRef ItemOID="i.aeser" Mandatory="Yes" OrderNumber="1"/>
         </ItemGroupDef>
         <ItemGroupDef OID="g.suppae4" Name="AE AxMP" Repeating="No" Domain="SUPPAE">
            <ItemRef ItemOID="i.ae_aeacnnst" Mandatory="Yes" OrderNumber="1"/>
         </ItemGroupDef>
         <ItemGroupDef OID="g.pr" Name="Concurrent procedures" Repeating="No" Domain="PR"
                       Purpose="Tabulation">
            <ItemRef ItemOID="i.prspid" Mandatory="Yes" OrderNumber="1"/>
            <ItemRef ItemOID="i.prtrt" Mandatory="Yes" OrderNumber="2"/>
            <ItemRef ItemOID="i.prtrt2" Mandatory="Yes" OrderNumber="3"/>
            <ItemRef ItemOID="i.prindc" Mandatory="Yes" OrderNumber="4"/>
            <ItemRef ItemOID="i.prstdat" Mandatory="Yes" OrderNumber="5"/>
            <ItemRef ItemOID="i.prendat" Mandatory="Yes" OrderNumber="6"/>
            <ItemRef ItemOID="i.prenrtpt" Mandatory="Yes" OrderNumber="7"/>
            <ItemRef ItemOID="i.prloc6" Mandatory="Yes" OrderNumber="8"/>
         </ItemGroupDef>
         <ItemGroupDef OID="g.cm3" Name="Concomitant Medication 3" Repeating="No" Domain="CM"
                       Purpose="Tabulation">
            <ItemRef ItemOID="i.cmdosfrq4" Mandatory="Yes" OrderNumber="1"/>
         </ItemGroupDef>
         <ItemGroupDef OID="g.lb4" Name="Central laboratory" Repeating="No" Domain="LB"
                       Purpose="Tabulation">
            <ItemRef ItemOID="i.lbperf4" Mandatory="Yes" OrderNumber="1"/>
            <ItemRef ItemOID="i.lbreasnd6" Mandatory="Yes" OrderNumber="2"/>
            <ItemRef ItemOID="i.lbdat" Mandatory="Yes" OrderNumber="3"/>
            <ItemRef ItemOID="i.lbtim" Mandatory="Yes" OrderNumber="4"/>
            <ItemRef ItemOID="i.lborres6" Mandatory="Yes" OrderNumber="5"/>
            <ItemRef ItemOID="i.lborres" Mandatory="Yes" OrderNumber="6"/>
            <ItemRef ItemOID="i.lbreasnd8" Mandatory="Yes" OrderNumber="7"/>
            <ItemRef ItemOID="i.lbdat3" Mandatory="Yes" OrderNumber="8"/>
            <ItemRef ItemOID="i.lbtim2" Mandatory="Yes" OrderNumber="9"/>
            <ItemRef ItemOID="i.lborres9" Mandatory="Yes" OrderNumber="10"/>
         </ItemGroupDef>
         <ItemGroupDef OID="g.lb" Name="Urine dipstick" Repeating="No" Domain="LB"
                       Purpose="Tabulation">
            <ItemRef ItemOID="i.lbperf5" Mandatory="Yes" OrderNumber="1"/>
            <ItemRef ItemOID="i.lbreasnd7" Mandatory="Yes" OrderNumber="2"/>
            <ItemRef ItemOID="i.lborres7" Mandatory="Yes" OrderNumber="3"/>
         </ItemGroupDef>
         <ItemGroupDef OID="g.lb3" Name="Urine Pregnancy Test" Repeating="No" Domain="LB"
                       Purpose="Tabulation">
            <ItemRef ItemOID="i.lbdat2" Mandatory="Yes" OrderNumber="1"/>
            <ItemRef ItemOID="i.lborres5" Mandatory="Yes" OrderNumber="2"/>
         </ItemGroupDef>
         <ItemGroupDef OID="g.lb2" Name="Sampling performed for blood biomarkers" Repeating="No"
                       Domain="LB"
                       Purpose="Tabulation">
            <ItemRef ItemOID="i.lborres4" Mandatory="Yes" OrderNumber="1"/>
            <ItemRef ItemOID="i.lbreasnd" Mandatory="Yes" OrderNumber="2"/>
         </ItemGroupDef>
         <ItemGroupDef OID="g.rp" Name="Is the female of child-bearing potential?" Repeating="No"
                       Domain="RP"
                       Purpose="Tabulation">
            <ItemRef ItemOID="i.rporres" Mandatory="Yes" OrderNumber="1"/>
            <ItemRef ItemOID="i.rporres2" Mandatory="Yes" OrderNumber="2"/>
            <ItemRef ItemOID="i.prreasnd" Mandatory="Yes" OrderNumber="3"/>
         </ItemGroupDef>
         <ItemGroupDef OID="g.ds20" Name="Additional informed consent" Repeating="No" Domain="DS"
                       Purpose="Tabulation">
            <ItemRef ItemOID="i.dsdecod15" Mandatory="Yes" OrderNumber="1"/>
            <ItemRef ItemOID="i.dsstdat16" Mandatory="Yes" OrderNumber="2"/>
         </ItemGroupDef>
         <ItemGroupDef OID="g.vs2" Name="Height and weight" Repeating="No" Domain="VS"
                       Purpose="Tabulation">
            <ItemRef ItemOID="i.vsorres2" Mandatory="Yes" OrderNumber="1"/>
            <ItemRef ItemOID="i.vsorresu2" Mandatory="Yes" OrderNumber="2"/>
            <ItemRef ItemOID="i.vsorres6" Mandatory="Yes" OrderNumber="3"/>
            <ItemRef ItemOID="i.vsorresu6" Mandatory="Yes" OrderNumber="4"/>
            <ItemRef ItemOID="i.vsorres8" Mandatory="Yes" OrderNumber="5"/>
            <ItemRef ItemOID="i.vsorresu7" Mandatory="Yes" OrderNumber="6"/>
         </ItemGroupDef>
         <ItemGroupDef OID="g.suppdm2" Name="Race Other" Repeating="No" Domain="SUPPDM">
            <ItemRef ItemOID="i.dm_raceoth" Mandatory="Yes" OrderNumber="1"/>
         </ItemGroupDef>
         <ItemGroupDef OID="g.suppdm12" Name="Age" Repeating="No" Domain="SUPPDM">
            <ItemRef ItemOID="i.dm_age" Mandatory="Yes" OrderNumber="1"/>
            <ItemRef ItemOID="i.dm_ageu" Mandatory="Yes" OrderNumber="2"/>
         </ItemGroupDef>
         <ItemGroupDef OID="g.dm5" Name="Date of birth" Repeating="No" Domain="DM"
                       Purpose="Tabulation">
            <ItemRef ItemOID="i.brthdat" Mandatory="Yes" OrderNumber="1"/>
         </ItemGroupDef>
         <ItemGroupDef OID="g.dm" Name="Demographics" Repeating="No" Domain="DM" Purpose="Tabulation">
            <ItemRef ItemOID="i.sex" Mandatory="Yes" OrderNumber="1"/>
            <ItemRef ItemOID="i.ethnic" Mandatory="Yes" OrderNumber="2"/>
            <ItemRef ItemOID="i.race" Mandatory="Yes" OrderNumber="3"/>
            <ItemRef ItemOID="i.race2" Mandatory="Yes" OrderNumber="4"/>
         </ItemGroupDef>
         <ItemDef OID="i.pryn2"
                  Name="Did the subject have any concurrent procedures/surgeries since screening?"
                  DataType="text"
                  Length="20">
            <Question>
               <TranslatedText>Did the subject have any concurrent procedures/surgeries since screening?</TranslatedText>
            </Question>
            <CodeListRef CodeListOID="CL.C66742.NY.X3"/>
            <Alias Context="SDTM" Name="NOT SUBMITTED"/>
         </ItemDef>
         <ItemDef OID="i.cmyn2" Name="Did the subject take any concomitant medications?"
                  DataType="text"
                  Length="20">
            <Question>
               <TranslatedText>Did the subject take any concomitant medications?</TranslatedText>
            </Question>
            <CodeListRef CodeListOID="CL.C66742.NY.X3"/>
            <Alias Context="SDTM" Name="NOT SUBMITTED"/>
         </ItemDef>
         <ItemDef OID="i.aeyn2" Name="Did the subject have any adverse events since screening?"
                  DataType="text"
                  Length="20">
            <Question>
               <TranslatedText>Did the subject have any adverse events since screening</TranslatedText>
            </Question>
            <CodeListRef CodeListOID="CL.C66742.NY.X3"/>
            <Alias Name="NOT SUBMITTED" Context="SDTM"/>
         </ItemDef>
         <ItemDef OID="i.aerel2" Name="Was the AE related to AxMP (TCS)?" DataType="text"
                  SDSVarName="AERELNST"
                  Length="20">
            <Question>
               <TranslatedText>Was the AE related to AxMP (TCS)?</TranslatedText>
            </Question>
            <CodeListRef CodeListOID="cl.aerel2"/>
         </ItemDef>
         <ItemDef OID="i.cmstdat" Name="Start date" DataType="date" SDSVarName="CMSTDTC">
            <Question>
               <TranslatedText>Start date</TranslatedText>
            </Question>
         </ItemDef>
         <ItemDef OID="i.cmdosfrm" Name="[If Topical, ]Dose form" DataType="text"
                  SDSVarName="CMDOSFRM"
                  Length="20">
            <Question>
               <TranslatedText>[If Topical, ]Dose form</TranslatedText>
            </Question>
            <CodeListRef CodeListOID="CL.C66726.FRM.X1"/>
         </ItemDef>
         <ItemDef OID="i.cm_frqoth" Name="[If Other, ]Specify" DataType="text" Length="20"
                  SDSVarName="QVAL">
            <Question>
               <TranslatedText>[If Other, ]Specify</TranslatedText>
            </Question>
            <Alias Context="SDTM" Name="SUPPCM.QNAM = FRQOTH"/>
         </ItemDef>
         <ItemDef OID="i.aestdat" Name="Start date" DataType="date" SDSVarName="AESTDTC">
            <Question>
               <TranslatedText>Start date</TranslatedText>
            </Question>
         </ItemDef>
         <ItemDef OID="i.cmdosfrq4" Name="Frequency " DataType="text" Length="20"
                  SDSVarName="CMDOSFRQ">
            <Question>
               <TranslatedText>Frequency</TranslatedText>
            </Question>
            <CodeListRef CodeListOID="CL.C71113.FREQ.X1"/>
         </ItemDef>
         <ItemDef OID="i.cmdosu3" Name="Unit " DataType="text" Length="20" SDSVarName="CMDOSU">
            <Question>
               <TranslatedText>Unit</TranslatedText>
            </Question>
            <CodeListRef CodeListOID="CL.C71620.UNIT.X12"/>
         </ItemDef>
         <ItemDef OID="i.prindc" Name="Indication" DataType="text" Length="20"
                  SDSVarName="PRINDC">
            <Question>
               <TranslatedText>Indication</TranslatedText>
            </Question>
         </ItemDef>
         <ItemDef OID="i.aeterm" Name="Adverse event " DataType="text" Length="20"
                  SDSVarName="AETERM">
            <Question>
               <TranslatedText>Adverse event</TranslatedText>
            </Question>
         </ItemDef>
         <ItemDef OID="i.prstdat" Name="Start date " DataType="date" SDSVarName="PRSTDTC">
            <Question>
               <TranslatedText>Start date</TranslatedText>
            </Question>
         </ItemDef>
         <ItemDef OID="i.ae_aeawdr" Name="Withdrawn from trial due to this AE?" DataType="text"
                  Length="20"
                  SDSVarName="QVAL">
            <Question>
               <TranslatedText>Withdrawn from trial due to this AE?</TranslatedText>
            </Question>
            <CodeListRef CodeListOID="CL.C66742.NY.X3"/>
            <Alias Context="SDTM" Name="SUPPAE.QNAM=AEAWDR"/>
         </ItemDef>
         <ItemDef OID="i.cmendat2" Name="Stop date" DataType="date" SDSVarName="CMENDTC">
            <Question>
               <TranslatedText>Stop date</TranslatedText>
            </Question>
         </ItemDef>
         <ItemDef OID="i.ae_reltdap" Name="Was the AE related to IMP (Tdap vaccine)?"
                  DataType="text"
                  Length="20"
                  SDSVarName="QVAL">
            <Question>
               <TranslatedText>Was the AE related to IMP (Tdap vaccine)?</TranslatedText>
            </Question>
            <CodeListRef CodeListOID="cl.aerel2"/>
            <Alias Context="SDTM" Name="SUPPAE.QNAM=RELTDAP"/>
         </ItemDef>
         <ItemDef OID="i.cmspid" Name="CM Number " DataType="integer" Length="3"
                  SDSVarName="CMSPID">
            <Question>
               <TranslatedText>CM Number</TranslatedText>
            </Question>
         </ItemDef>
         <ItemDef OID="i.prtrt2" Name="Procedure name" DataType="text" SDSVarName="PRTRT"
                  Length="20">
            <Question>
               <TranslatedText>Procedure name</TranslatedText>
            </Question>
         </ItemDef>
         <ItemDef OID="i.prenrtpt" Name="Ongoing" DataType="text" Length="20"
                  SDSVarName="PRENRTPT">
            <Question>
               <TranslatedText>Ongoing</TranslatedText>
            </Question>
            <CodeListRef CodeListOID="CL.C66742.NY.X3"/>
            <Alias Context="SDTM" Name="PRENTPT=END OF TRIAL"/>
         </ItemDef>
         <ItemDef OID="i.ae_occur"
                  Name="If the adverse event started on the SAME DAY a dose was administered, did the adverse event start before or after dosing of IMP? "
                  DataType="text"
                  SDSVarName="QVAL"
                  Length="20">
            <Question>
               <TranslatedText>If the adverse event started on the SAME DAY a dose was administered, did the adverse event start before or after dosing of IMP?</TranslatedText>
            </Question>
            <CodeListRef CodeListOID="cl.ae_occur"/>
            <Alias Context="SDTM" Name="SUPPAE.QNAM=AEOCCUR"/>
         </ItemDef>
         <ItemDef OID="i.aeenrtpt" Name="Ongoing" DataType="text" Length="20"
                  SDSVarName="AEENRTPT">
            <Question>
               <TranslatedText>Ongoing</TranslatedText>
            </Question>
            <CodeListRef CodeListOID="CL.C66742.NY.X3"/>
            <Alias Context="SDTM" Name="If ONGOING then AEENTPT=END OF TRIAL"/>
         </ItemDef>
         <ItemDef OID="i.prloc6" Name="Body location" DataType="text" SDSVarName="PRLOC"
                  Length="20">
            <Question>
               <TranslatedText>Body location</TranslatedText>
            </Question>
            <CodeListRef CodeListOID="CL.C74456.LOC.X1"/>
         </ItemDef>
         <ItemDef OID="i.ae_aestdtc" Name="[if Yes, ]Start time of AE" DataType="time"
                  SDSVarName="QVAL">
            <Question>
               <TranslatedText>[if Yes, ]Start time of AE</TranslatedText>
            </Question>
            <Alias Context="SDTM" Name="SUPPAE.QNAM=AESTDTC"/>
         </ItemDef>
         <ItemDef OID="i.aerel" Name="Was the AE related to IMP?" DataType="text" Length="20"
                  SDSVarName="AEREL">
            <Question>
               <TranslatedText>Was the AE related to IMP?</TranslatedText>
            </Question>
            <CodeListRef CodeListOID="cl.aerel2"/>
         </ItemDef>
         <ItemDef OID="i.egperf" Name="Was the ECG performed?" DataType="text" Length="20"
                  SDSVarName="EGORRES">
            <Question>
               <TranslatedText>Was the ECG performed?</TranslatedText>
            </Question>
            <CodeListRef CodeListOID="CL.C66742.NY.X3"/>
            <Alias Context="SDTM"
                   Name="EGTESTCD=INTP. If Yes then use EGORRES for the result. If No then EGSTAT=NOT DONE and populate EGREASND."/>
         </ItemDef>
         <ItemDef OID="i.ae_relmeni" Name="Was the AE related to IMP (meningococcal vaccine)?"
                  DataType="text"
                  Length="20"
                  SDSVarName="QVAL">
            <Description>
               <TranslatedText>Internal note: Item only to be added in trials where additional IMP’s than the randomized treatment are included. Align the text in the brackets to the protocol.</TranslatedText>
            </Description>
            <Question>
               <TranslatedText>Was the AE related to IMP (meningococcal vaccine)?</TranslatedText>
            </Question>
            <CodeListRef CodeListOID="cl.aerel2"/>
            <Alias Context="SDTM" Name="SUPPAE.QNAM=RELMENI"/>
         </ItemDef>
         <ItemDef OID="i.prspid" DataType="integer" Length="3" Name="Procedure number"
                  SDSVarName="PRSPID">
            <Question>
               <TranslatedText>Procedure number</TranslatedText>
            </Question>
         </ItemDef>
         <ItemDef OID="i.ae_aereltrt" Name="Location of AE relative to treatment area"
                  DataType="text"
                  Length="20"
                  SDSVarName="QVAL">
            <Question>
               <TranslatedText>Location of AE relative to treatment area</TranslatedText>
            </Question>
            <CodeListRef CodeListOID="cl.ae_aereltrt"/>
            <Alias Context="SDTM" Name="SUPPAE.QNAM=AERELTRT"/>
         </ItemDef>
         <ItemDef OID="i.aeloc2" Name="Location of AE" DataType="text" Length="20"
                  SDSVarName="AELOC">
            <Question>
               <TranslatedText>Location of AE</TranslatedText>
            </Question>
            <CodeListRef CodeListOID="CL.C74456.LOC.X13"/>
            <Alias Context="SDTM"
                   Name="If value does not exist on LOC codelist then place in SUPPAE.QVAL where QNAM=ALTLOC."/>
         </ItemDef>
         <ItemDef OID="i.saecriteria" Name="SAE criteria (Tick all that apply) " DataType="text"
                  Length="20">
            <Question>
               <TranslatedText>SAE criteria (Tick all that apply)</TranslatedText>
            </Question>
            <CodeListRef CodeListOID="cl.saecriteria"/>
            <Alias Context="SDTM:Question"
                   Name="If ticked, set the relevant variable in AE to Y. If Fatal, set AESDTH. If Life-threatening set AESLIFE. If Hospitalisation set AESHOSP.  "/>
            <Alias Context="SDTM 2:Question"
                   Name="If Persistent or significant disability/incapacity, set AESDISAB. If Congenital anormaly set AESCONG. If Other medically important condition set AESMIE."/>
         </ItemDef>
         <ItemDef OID="i.egreasnd" Name="[If No, ]Specify reason" DataType="text" Length="20"
                  SDSVarName="EGREASND">
            <Question>
               <TranslatedText>[If No, ]Specify reason</TranslatedText>
            </Question>
            <Alias Context="SDTM" Name="EGTESTCD=INTP"/>
         </ItemDef>
         <ItemDef OID="i.ae_aetrtem"
                  Name="Did the adverse event start before the first administration of IMP?"
                  DataType="text"
                  Length="20"
                  SDSVarName="QVAL">
            <Description>
               <TranslatedText>Internal note: Used in e.g. AK trials and Test drug trials. Only one of the questions 'If the adverse event started on the SAME DAY a dose was administered, did the adverse event start before or after dosing of IMP?' or 'Did the adverse event start before the first administration of IMP?' is used. (tralokinumab/placebo) only to be added to question in trials where additional IMP’s than the randomized treatment are included. Align the text in the brackets to the protocol. CRF Guidance text: Note the first administration = the administration at week 0/Visit 3. Adjust CRF Guidance to protocol.</TranslatedText>
            </Description>
            <Question>
               <TranslatedText>Did the adverse event start before the first administration of IMP?</TranslatedText>
            </Question>
            <CodeListRef CodeListOID="CL.C66742.NY.X3"/>
            <Alias Context="SDTM" Name="SUPPAE.QNAM=AETRTEM"/>
         </ItemDef>
         <ItemDef OID="i.cmenrtpt" Name="Ongoing" DataType="text" Length="20"
                  SDSVarName="CMENRTPT">
            <Question>
               <TranslatedText>Ongoing</TranslatedText>
            </Question>
            <CodeListRef CodeListOID="CL.C66742.NY.X3"/>
            <Alias Context="SDTM" Name="CMENTPT=END OF TRIAL"/>
         </ItemDef>
         <ItemDef OID="i.aespid" DataType="integer" Name="AE identifier " Length="3"
                  SDSVarName="AESPID">
            <Question>
               <TranslatedText>AE identifier</TranslatedText>
            </Question>
         </ItemDef>
         <ItemDef OID="i.prtrt" Name="Procedure name (include anatomical area if relevant)"
                  DataType="text"
                  Length="20"
                  SDSVarName="PRTRT">
            <Question>
               <TranslatedText>Procedure name (include anatomical area if relevant)</TranslatedText>
            </Question>
         </ItemDef>
         <ItemDef OID="i.cmtrt2" Name="Medication or therapy (generic or brand name) "
                  DataType="text"
                  Length="20"
                  SDSVarName="CMTRT">
            <Question>
               <TranslatedText>Medication or therapy (generic or brand name)</TranslatedText>
            </Question>
         </ItemDef>
         <ItemDef OID="i.cmdostxt3" Name="Dose per administration" DataType="text" Length="20"
                  SDSVarName="CMDOSTXT">
            <Question>
               <TranslatedText>Dose per administration</TranslatedText>
            </Question>
            <Alias Context="SDTM"
                   Name="If CMDOSTXT is a numeric value, then transfer the number to the numeric field CMDOSE, and set CMDOSTXT to null"/>
         </ItemDef>
         <ItemDef OID="i.cm_frmoth" Name="[If Other, ]Specify" DataType="text" SDSVarName="QVAL"
                  Length="20">
            <Question>
               <TranslatedText>[If Other, ]Specify</TranslatedText>
            </Question>
            <Alias Context="SDTM" Name="SUPPCM.QNAM=FRMOTH"/>
         </ItemDef>
         <ItemDef OID="i.rescmed"
                  Name="Is this medication or therapy a rescue medication for chronic hand eczema?"
                  DataType="text"
                  SDSVarName="QVAL"
                  Length="20">
            <Question>
               <TranslatedText>Is this medication or therapy a rescue medication for chronic hand eczema?</TranslatedText>
            </Question>
            <CodeListRef CodeListOID="CL.C66742.NY.X3"/>
            <Alias Context="SDTM" Name="SUPPCM.QNAM=RESCMED "/>
         </ItemDef>
         <ItemDef OID="i.ae_cytrtem"
                  Name="Did the AE start at the same day as CYP cocktail was given?"
                  DataType="text"
                  Length="20"
                  SDSVarName="QVAL">
            <Question>
               <TranslatedText>Did the AE start at the same day as CYP cocktail was given?</TranslatedText>
            </Question>
            <CodeListRef CodeListOID="CL.C66742.NY.X3"/>
            <Alias Context="SDTM" Name="SUPPAE.QNAM=CYPTRTEM"/>
         </ItemDef>
         <ItemDef OID="i.ae_aestdtc2" Name="[If Yes, ]Stop time of AE" DataType="time"
                  SDSVarName="QVAL">
            <Question>
               <TranslatedText>[If Yes, ]Stop time of AE</TranslatedText>
            </Question>
            <Alias Context="SDTM" Name="SUPPAE.QNAM=AEENDTC"/>
         </ItemDef>
         <ItemDef OID="i.aeout" Name="Outcome " DataType="text" Length="20" SDSVarName="AEOUT">
            <Question>
               <TranslatedText>Outcome</TranslatedText>
            </Question>
            <CodeListRef CodeListOID="CL.C66768.OUT"/>
         </ItemDef>
         <ItemDef OID="i.aesev" Name="Severity" DataType="text" Length="20" SDSVarName="AESEV">
            <Question>
               <TranslatedText>Severity</TranslatedText>
            </Question>
            <CodeListRef CodeListOID="CL.C66769.AESEV"/>
         </ItemDef>
         <ItemDef OID="i.prendat" Name="Stop date" DataType="date" SDSVarName="PRENDTC">
            <Question>
               <TranslatedText>Stop date</TranslatedText>
            </Question>
         </ItemDef>
         <ItemDef OID="i.egorres" Name="[If Yes, ]Results" DataType="text" SDSVarName="EGORRES"
                  Length="20">
            <Question>
               <TranslatedText>[If Yes, ]Results</TranslatedText>
            </Question>
            <CodeListRef CodeListOID="cl.peorres"/>
            <Alias Context="SDTM"
                   Name="EGTESTCD=INTP. If Normal EGORRES= NORMAL, if Abnormal EGORRES= ABNORMAL.  If Clinically Significant SUPPEG.QVAL=Y(QNAM=EGCLSIG), if Not Clinically significant  SUPPEG.QVAL=N(QNAM=EGCLSIG)"/>
         </ItemDef>
         <ItemDef OID="i.aeacn" Name="Action taken with IMP" DataType="text" Length="20"
                  SDSVarName="AEACN">
            <Question>
               <TranslatedText>Action taken with IMP</TranslatedText>
            </Question>
            <CodeListRef CodeListOID="CL.C66767.ACN"/>
         </ItemDef>
         <ItemDef OID="i.aeendat" Name="Stop date " DataType="date" SDSVarName="AEENDTC">
            <Description>
               <TranslatedText>Design note: Day can be unknown but month and year must be filled out</TranslatedText>
            </Description>
            <Question>
               <TranslatedText>Stop date</TranslatedText>
            </Question>
         </ItemDef>
         <ItemDef OID="i.egdat" Name="Date of ECG" DataType="date" SDSVarName="EGDTC">
            <Question>
               <TranslatedText>Date of ECG</TranslatedText>
            </Question>
            <Alias Context="SDTM" Name="EGTESTCD=INTP"/>
         </ItemDef>
         <ItemDef OID="i.ae_aeacnnst" Name="Action taken with AxMP (TCS)" DataType="text"
                  Length="20"
                  SDSVarName="QVAL">
            <Question>
               <TranslatedText>Action taken with AxMP (TCS)</TranslatedText>
            </Question>
            <CodeListRef CodeListOID="CL.C66767.ACN"/>
            <Alias Context="SDTM" Name="SUPPAE.QNAM=AEACNNST"/>
         </ItemDef>
         <ItemDef OID="i.ae_aesi2" Name="Is the event an adverse event of special interest?  "
                  DataType="text"
                  Length="20"
                  SDSVarName="QVAL">
            <Question>
               <TranslatedText>Is the event an adverse event of special interest?</TranslatedText>
            </Question>
            <CodeListRef CodeListOID="CL.C66742.NY.X3"/>
            <Alias Context="SDTM" Name="SUPPAE.QNAM=AESI"/>
         </ItemDef>
         <ItemDef OID="i.aeacnoth" Name="Other action taken (tick all that apply)"
                  DataType="text"
                  SDSVarName="AEACNOTH"
                  Length="20">
            <Question>
               <TranslatedText>Other action taken (tick all that apply)</TranslatedText>
            </Question>
            <CodeListRef CodeListOID="cl.aeacnoth"/>
            <Alias Context="SDTM"
                   Name="IF MULTIPLE ANSWERS ARE GIVEN SET AEACNOTH TO MULTIPLE AND STORE INDIVIDUAL ANSWERS IN SUPPAE"/>
         </ItemDef>
         <ItemDef OID="i.cmroute3" Name="Route " DataType="text" Length="20" SDSVarName="CMROUTE">
            <Question>
               <TranslatedText>Route</TranslatedText>
            </Question>
            <CodeListRef CodeListOID="CL.C66729.ROUTE.X1"/>
         </ItemDef>
         <ItemDef OID="i.aeser" Name="Was the AE serious? " DataType="text" Length="20"
                  SDSVarName="AESER">
            <Question>
               <TranslatedText>Was the AE serious?</TranslatedText>
            </Question>
            <CodeListRef CodeListOID="CL.C66742.NY.X3"/>
         </ItemDef>
         <ItemDef OID="i.ae_aeoccur"
                  Name="Did the adverse event start before the administration of the vaccines?"
                  DataType="text"
                  SDSVarName="QVAL"
                  Length="20">
            <Question>
               <TranslatedText>Did the adverse event start before the administration of the vaccines?</TranslatedText>
            </Question>
            <CodeListRef CodeListOID="CL.C66742.NY.X3"/>
            <Alias Context="SDTM" Name="SUPPAE.QNAM=AEOCCUR"/>
         </ItemDef>
         <ItemDef OID="i.cmindc" Name="Indication" DataType="text" Length="20"
                  SDSVarName="CMINDC">
            <Question>
               <TranslatedText>Indication</TranslatedText>
            </Question>
         </ItemDef>
         <ItemDef OID="i.cm_dosuoth2" Name="[If Other, ]Specify" DataType="text" Length="20"
                  SDSVarName="QVAL">
            <Question>
               <TranslatedText>[If Other, ]Specify</TranslatedText>
            </Question>
            <Alias Context="SDTM" Name="SUPPCM.QNAM = DOSUOTH"/>
         </ItemDef>
         <ItemDef OID="i.pr_intrtar" Name="Inside treatment area?" DataType="text"
                  SDSVarName="QVAL"
                  Length="20">
            <Question>
               <TranslatedText>Inside treatment area?</TranslatedText>
            </Question>
            <CodeListRef CodeListOID="CL.C66742.NY"/>
            <Alias Context="SDTM" Name="SUPPPR.QNAM=INTRTAR"/>
         </ItemDef>
         <ItemDef OID="i.lborres9" Name="[If Yes, ]Result " DataType="text" SDSVarName="LBORRES"
                  Length="20">
            <Question>
               <TranslatedText>[If Yes, ]Result</TranslatedText>
            </Question>
            <CodeListRef CodeListOID="cl.peorres"/>
            <Alias Context="SDTM 2"
                   Name="If Clinically Significant SUPPLB.QVAL=Y(QNAM=LBCLSIG),if Not Clinically significant SUPPLB.QVAL=N(QNAM=LBCLSIG)"/>
            <Alias Context="SDTM"
                   Name="LBCAT=URINALYSIS, LBTESTCD=INTP, LBSPEC=URINE, LBSPID=COLLECTED. If Normal LBORRES=NORMAL, if Abnormal LBORRES=ABNORMAL."/>
         </ItemDef>
         <ItemDef OID="i.dsdecod15"
                  Name="Did the subject sign the additional informed consent for biomarkers?"
                  DataType="text"
                  SDSVarName="DSDECOD"
                  Length="20">
            <Question>
               <TranslatedText>Did the subject sign the additional informed consent for biomarkers?</TranslatedText>
            </Question>
            <CodeListRef CodeListOID="CL.C66742.NY.X3"/>
            <Alias Context="SDTM"
                   Name="DSCAT=PROTOCOL MILESTONE. If No then create no record. If Yes then DSTERM=INFORMED CONSENT FOR ADDITIONAL BIOMARKERS, DSDECOD=INFORMED CONSENT OBTAINED"/>
         </ItemDef>
         <ItemDef OID="i.lbreasnd7" Name="[If No, ]Specify reason" DataType="text" Length="20"
                  SDSVarName="LBREASND">
            <Question>
               <TranslatedText>[If No, ]Specify reason</TranslatedText>
            </Question>
            <Alias Context="SDTM"
                   Name="LBCAT=URINALYSIS, LBTESTCD=SAMPLE, LBSPEC=URINE, LBSPID=COLLECTED, LBMETHOD=DIPSTICK. "/>
         </ItemDef>
         <ItemDef OID="i.lborres" Name="Was a urine sample sent for urinalysis?" DataType="text"
                  SDSVarName="LBORRES"
                  Length="20">
            <Question>
               <TranslatedText>Was a urine sample sent for urinalysis?</TranslatedText>
            </Question>
            <CodeListRef CodeListOID="CL.C66742.NY.X4"/>
            <Alias Context="SDTM"
                   Name="LBCAT=URINALYSIS, LBTESTCD=SAMPLE, LBSPEC=URINE, LBSPID=COLLECTED. If No, then LBSTAT=NOT DONE, LBORRES set as blank and populate LBREASND. If Yes set LBORRES to Y. "/>
            <Alias Context="SDTM 2" Name="If NA set LBORRES to NA"/>
         </ItemDef>
         <ItemDef OID="i.lbperf5" Name="Was a urine sample tested with a dipstick?"
                  DataType="text"
                  SDSVarName="LBORRES"
                  Length="20">
            <Question>
               <TranslatedText>Was a urine sample tested with a dipstick?</TranslatedText>
            </Question>
            <CodeListRef CodeListOID="CL.C66742.NY.X3"/>
            <Alias Context="SDTM"
                   Name="LBCAT=URINALYSIS, LBTESTCD=SAMPLE, LBSPEC=URINE, LBSPID=COLLECTED, LBMETHOD=DIPSTICK. If No, then LBSTAT=NOT DONE and populate LBREASND. If Yes set LBORRES to Y."/>
         </ItemDef>
         <ItemDef OID="i.lbdat2" Name="[If Yes, ]Urine pregnancy test date" DataType="date"
                  SDSVarName="LBDTC">
            <Question>
               <TranslatedText>[If Yes, ]Urine pregnancy test date</TranslatedText>
            </Question>
            <Alias Context="SDTM"
                   Name="LBCAT=URINALYSIS, LBTESTCD=HCG, LBSPEC=URINE, LBSPID=COLLECTED"/>
         </ItemDef>
         <ItemDef OID="i.rporres2" Name="[If Yes, ]Was a urine pregnancy test performed?"
                  DataType="text"
                  SDSVarName="RPORRES"
                  Length="20">
            <Question>
               <TranslatedText>[If Yes, ]Was a urine pregnancy test performed?</TranslatedText>
            </Question>
            <CodeListRef CodeListOID="CL.C66742.NY.X3"/>
            <Alias Context="SDTM" Name="RPTESTCD=HCGDONE. If No then PRSTAT=NOT DONE"/>
         </ItemDef>
         <ItemDef OID="i.lbreasnd" Name="[If No, ]Specify reason" DataType="text" Length="20"
                  SDSVarName="LBREASND">
            <Question>
               <TranslatedText>[If No, ]Specify reason</TranslatedText>
            </Question>
            <Alias Context="SDTM"
                   Name="LBCAT=BIOMARKER, LBTESTCD=SAMPLE, LBSPEC=SERUM, LBSPID=COLLECTED."/>
         </ItemDef>
         <ItemDef OID="i.rporres" Name="Is the female of child-bearing potential?"
                  DataType="text"
                  SDSVarName="RPORRES"
                  Length="20">
            <Question>
               <TranslatedText>Is the female of child-bearing potential?</TranslatedText>
            </Question>
            <CodeListRef CodeListOID="CL.C66742.NY.X3"/>
            <Alias Context="SDTM" Name="RPTESTCD=CHILDPOT"/>
         </ItemDef>
         <ItemDef OID="i.lborres4" Name="Was sampling performed for blood biomarkers?"
                  DataType="text"
                  SDSVarName="LBORRES"
                  Length="20">
            <Question>
               <TranslatedText>Was sampling performed for blood biomarkers?</TranslatedText>
            </Question>
            <CodeListRef CodeListOID="CL.C66742.NY.X4"/>
            <Alias Context="SDTM"
                   Name="LBCAT=BIOMARKER, LBTESTCD=SAMPLE, LBSPEC=SERUM, LBSPID=COLLECTED.  If No, then LBSTAT=NOT DONE, LBORRES and populate LBREASND. If Yes set LBORRES to Y.  If NA set LBORRES to NA."/>
         </ItemDef>
         <ItemDef OID="i.dsstdat16" Name="[If Yes, ]Provide date the consent was signed"
                  DataType="date"
                  SDSVarName="DSSTDTC">
            <Question>
               <TranslatedText>[If Yes, ]Provide date the consent was signed</TranslatedText>
            </Question>
         </ItemDef>
         <ItemDef OID="i.lborres7" Name="[If Yes, ]Result " DataType="text" SDSVarName="LBORRES"
                  Length="20">
            <Question>
               <TranslatedText>[If Yes, ]Result</TranslatedText>
            </Question>
            <CodeListRef CodeListOID="CL.C101834.NORMABNM.X1"/>
            <Alias Context="SDTM"
                   Name="LBCAT=URINALYSIS, LBTESTCD=INTP, LBSPEC=URINE, LBSPID=COLLECTED, LBMETHOD=DIPSTICK. "/>
         </ItemDef>
         <ItemDef OID="i.lborres6" Name="[If Yes, ]Result " DataType="text" Length="20"
                  SDSVarName="LBORRES">
            <Question>
               <TranslatedText>[If Yes, ]Result</TranslatedText>
            </Question>
            <CodeListRef CodeListOID="cl.peorres"/>
            <Alias Context="SDTM"
                   Name="LBCAT=BLOOD ANALYSIS, LBTESTCD=INTP, LBSPEC=BLOOD, LBSPID=COLLECTED. If Normal LBORRES=NORMAL, if Abnormal LBORRES=ABNORMAL. "/>
            <Alias Context="SDTM 2"
                   Name="If Clinically Significant SUPPLB.QVAL=Y(QNAM=LBCLSIG), if Not Clinically significant  SUPPLB.QVAL=N(QNAM=LBCLSIG)"/>
         </ItemDef>
         <ItemDef OID="i.lborres5" Name="[If Yes, ]Result " DataType="text" Length="20"
                  SDSVarName="LBORRES">
            <Question>
               <TranslatedText>[If Yes, ]Result</TranslatedText>
            </Question>
            <CodeListRef CodeListOID="CL.C102580.LBSTRESC.X1"/>
            <Alias Context="SDTM"
                   Name="LBCAT=URINALYSIS, LBTESTCD=HCG, LBSPEC=URINE, LBSPID=COLLECTED"/>
         </ItemDef>
         <ItemDef OID="i.lbreasnd8" Name="[If No, ]Specify reason" DataType="text" Length="20"
                  SDSVarName="LBREASND">
            <Question>
               <TranslatedText>[If No, ]Specify reason</TranslatedText>
            </Question>
            <Alias Context="SDTM"
                   Name="LBCAT=URINALYSIS, LBTESTCD=SAMPLE, LBSPEC=URINE, LBSPID=COLLECTED."/>
         </ItemDef>
         <ItemDef OID="i.lbreasnd6" Name="[If No, ]Specify reason " DataType="text" Length="20"
                  SDSVarName="LBREASND">
            <Question>
               <TranslatedText>[If No, ]Specify reason</TranslatedText>
            </Question>
            <Alias Context="SDTM"
                   Name="LBCAT=BLOOD ANALYSIS, LBTESTCD=SAMPLE, LBSPEC=BLOOD, LBSPID=COLLECTED."/>
         </ItemDef>
         <ItemDef OID="i.lbtim" Name="[If Yes, ]Time of sampling" DataType="time"
                  SDSVarName="LBDTC">
            <Question>
               <TranslatedText>[If Yes, ]Time of sampling</TranslatedText>
            </Question>
            <Alias Context="SDTM"
                   Name="LBCAT=BLOOD ANALYSIS, LBTESTCD=SAMPLE, LBSPEC=BLOOD, LBSPID=COLLECTED."/>
         </ItemDef>
         <ItemDef OID="i.lbperf4" Name="Was blood sampling performed?" DataType="text"
                  Length="20"
                  SDSVarName="LBORRES">
            <Question>
               <TranslatedText>Was blood sampling performed?</TranslatedText>
            </Question>
            <CodeListRef CodeListOID="CL.C66742.NY.X3"/>
            <Alias Context="SDTM"
                   Name="LBCAT=BLOOD ANALYSIS, LBTESTCD=SAMPLE, LBSPEC=BLOOD, LBSPID=COLLECTED. If No, then LBSTAT=NOT DONE and populate LBREASND. If Yes set LBORRES to Y."/>
         </ItemDef>
         <ItemDef OID="i.lbdat3" Name="[If Yes, ]Date of sampling" DataType="date"
                  SDSVarName="LBDTC">
            <Question>
               <TranslatedText>[If Yes, ]Date of sampling</TranslatedText>
            </Question>
            <Alias Context="SDTM"
                   Name="LBCAT=URINALYSIS, LBTESTCD=SAMPLE, LBSPEC=URINE, LBSPID=COLLECTED."/>
         </ItemDef>
         <ItemDef OID="i.lbdat" Name="[If Yes, ]Date of sampling" DataType="date"
                  SDSVarName="LBDTC">
            <Question>
               <TranslatedText>[If Yes, ]Date of sampling</TranslatedText>
            </Question>
            <Alias Context="SDTM"
                   Name="LBCAT=BLOOD ANALYSIS, LBTESTCD=SAMPLE, LBSPEC=BLOOD, LBSPID=COLLECTED."/>
         </ItemDef>
         <ItemDef OID="i.prreasnd" Name="[If No, ]Specify reason" DataType="text" Length="20"
                  SDSVarName="RPREASND">
            <Question>
               <TranslatedText>[If No, ]Specify reason</TranslatedText>
            </Question>
         </ItemDef>
         <ItemDef OID="i.lbtim2" Name="[If Yes, ]Time of sampling" DataType="time"
                  SDSVarName="LBDTC">
            <Question>
               <TranslatedText>[If Yes, ]Time of sampling</TranslatedText>
            </Question>
            <Alias Context="SDTM"
                   Name="LBCAT=URINALYSIS, LBTESTCD=SAMPLE, LBSPEC=URINE, LBSPID=COLLECTED."/>
         </ItemDef>
         <ItemDef OID="i.vsorres2" Name="Height " DataType="float" Length="4"
                  SignificantDigits="1"
                  SDSVarName="VSORRES">
            <Question>
               <TranslatedText>Height</TranslatedText>
            </Question>
            <Alias Context="SDTM" Name="VSTESTCD=HEIGHT"/>
         </ItemDef>
         <ItemDef OID="i.vsorresu2" Name="Unit height" DataType="text" SDSVarName="VSORRESU"
                  Length="20">
            <Question>
               <TranslatedText>Unit height</TranslatedText>
            </Question>
            <CodeListRef CodeListOID="CL.C66770.VSRESU.X3"/>
            <Alias Context="SDTM" Name="VSTESTCD=HEIGHT"/>
         </ItemDef>
         <ItemDef OID="i.vsorres8" Name="Body Mass Index (BMI)" DataType="float" Length="4"
                  SignificantDigits="1"
                  SDSVarName="VSORRES">
            <Question>
               <TranslatedText>Body Mass Index (BMI)</TranslatedText>
            </Question>
            <Alias Context="SDTM" Name="VSTESTCD=BMI"/>
         </ItemDef>
         <ItemDef OID="i.vsorresu6" Name="Unit weight" DataType="text" SDSVarName="VSORRESU"
                  Length="20">
            <Question>
               <TranslatedText>Unit weight</TranslatedText>
            </Question>
            <CodeListRef CodeListOID="CL.C66770.VSRESU.X7"/>
            <Alias Context="SDTM" Name="VSTESTCD=WEIGHT"/>
         </ItemDef>
         <ItemDef OID="i.vsorresu7" Name="BMI unit" DataType="text" SDSVarName="VSORRESU"
                  Length="20">
            <Question>
               <TranslatedText>BMI unit</TranslatedText>
            </Question>
            <CodeListRef CodeListOID="CL.C66770.VSRESU.X2"/>
            <Alias Context="SDTM" Name="VSTESTCD=BMI"/>
         </ItemDef>
         <ItemDef OID="i.vsorres6" Name="Weight" DataType="float" Length="4"
                  SignificantDigits="1"
                  SDSVarName="VSORRES">
            <Question>
               <TranslatedText>Weight</TranslatedText>
            </Question>
            <Alias Context="SDTM" Name="VSTESTCD=WEIGHT"/>
         </ItemDef>
         <ItemDef OID="I.0086.1396"
                  Name="Did the subject have any other events involving IMP since screening? "
                  DataType="text"
                  Length="20">
            <Description>
               <TranslatedText>Internal note: If the code Lack of efficacy is added to the item 'other event involving IMP' on the form 'other event involving IMP' then adjust the CRF guidance text accordingly</TranslatedText>
            </Description>
            <Question>
               <TranslatedText>Did the subject have any other events involving IMP since screening?</TranslatedText>
            </Question>
            <CodeListRef CodeListOID="CL.C66742.NY.X3"/>
         </ItemDef>
         <ItemDef OID="i.ethnic" Name="Ethnicity" DataType="text" Length="20" SDSVarName="ETHNIC">
            <Question>
               <TranslatedText>Ethnicity</TranslatedText>
            </Question>
            <CodeListRef CodeListOID="CL.C66790.ETHNIC.X1"/>
         </ItemDef>
         <ItemDef OID="i.dm_ageu" Name="Age unit" DataType="text" SDSVarName="QVAL" Length="20">
            <Question>
               <TranslatedText>Age unit</TranslatedText>
            </Question>
            <CodeListRef CodeListOID="CL.C66781.AGEU.X1"/>
            <Alias Context="SDTM"
                   Name="SUPPDM.QNAM=AGEnU n is a consequitive counter starting from 1"/>
         </ItemDef>
         <ItemDef OID="i.dm_raceoth" Name="[If Other, ]Specify" DataType="text" Length="20"
                  SDSVarName="QVAL">
            <Question>
               <TranslatedText>[If Other, ]Specify</TranslatedText>
            </Question>
            <Alias Context="SDTM" Name="SUPPDM.QNAM=RACEOTH"/>
         </ItemDef>
         <ItemDef OID="i.dm_age" Name="Age" DataType="integer" Length="3" SDSVarName="QVAL">
            <Question>
               <TranslatedText>Age</TranslatedText>
            </Question>
            <Alias Context="SDTM"
                   Name="SUPPDM.QNAM=AGEn. Set SUPPDM.QNAM=AGEnVIS where QVAL=the visit where age is collected"/>
         </ItemDef>
         <ItemDef OID="i.race" Name="Race" DataType="text" SDSVarName="RACE" Length="20">
            <Question>
               <TranslatedText>Race</TranslatedText>
            </Question>
            <CodeListRef CodeListOID="CL.C74457.RACE.X1"/>
            <Alias Context="SDTM" Name="if RACE=OTHER then value is set to NULL"/>
         </ItemDef>
         <ItemDef OID="i.sex" Name="Sex" DataType="text" Length="20" SDSVarName="SEX">
            <Question>
               <TranslatedText>Sex</TranslatedText>
            </Question>
            <CodeListRef CodeListOID="CL.C66731.SEX.X1"/>
         </ItemDef>
         <ItemDef OID="i.race2" Name="Race" DataType="text" SDSVarName="RACE" Length="20">
            <Question>
               <TranslatedText>Race</TranslatedText>
            </Question>
            <CodeListRef CodeListOID="CL.C74457.RACE.X2"/>
            <Alias Context="SDTM"
                   Name="if RACE=OTHER then value is set to NULL. If one of the two Asian races are indicated, set RACE=ASIAN and store original value in SUPPDM.QNAM=RACEC"/>
         </ItemDef>
         <ItemDef OID="i.brthdat" Name="Date of birth" DataType="date" SDSVarName="BRTHDTC">
            <Question>
               <TranslatedText>Date of birth</TranslatedText>
            </Question>
         </ItemDef>
         <CodeList OID="CL.C66742.NY.X3" Name="No Yes Response Yes No only" DataType="text">
            <CodeListItem CodedValue="Y" OrderNumber="1">
               <Decode>
                  <TranslatedText>Yes</TranslatedText>
               </Decode>
               <Alias Context="nci:ExtCodeID" Name="C49488"/>
            </CodeListItem>
            <CodeListItem CodedValue="N" OrderNumber="2">
               <Decode>
                  <TranslatedText>No</TranslatedText>
               </Decode>
               <Alias Context="nci:ExtCodeID" Name="C49487"/>
            </CodeListItem>
            <Alias Context="nci:ExtCodeID" Name="C66742"/>
         </CodeList>
         <CodeList OID="CL.C66769.AESEV" Name="Severity/Intensity Scale for Adverse Events"
                   DataType="text">
            <CodeListItem CodedValue="MILD" OrderNumber="1">
               <Decode>
                  <TranslatedText>Mild</TranslatedText>
               </Decode>
               <Alias Context="nci:ExtCodeID" Name="C41338"/>
            </CodeListItem>
            <CodeListItem CodedValue="MODERATE" OrderNumber="2">
               <Decode>
                  <TranslatedText>Moderate</TranslatedText>
               </Decode>
               <Alias Context="nci:ExtCodeID" Name="C41339"/>
            </CodeListItem>
            <CodeListItem CodedValue="SEVERE" OrderNumber="3">
               <Decode>
                  <TranslatedText>Severe</TranslatedText>
               </Decode>
               <Alias Context="nci:ExtCodeID" Name="C41340"/>
            </CodeListItem>
            <Alias Context="nci:ExtCodeID" Name="C66769"/>
         </CodeList>
         <CodeList OID="cl.peorres"
                   Name="Normal Abnormal, not clinically significant  Response Abnormal, clinically significant  Response"
                   DataType="text">
            <CodeListItem CodedValue="NORMAL" OrderNumber="1">
               <Decode>
                  <TranslatedText>Normal</TranslatedText>
               </Decode>
            </CodeListItem>
            <CodeListItem CodedValue="ABNORMAL - NOT CLINICALLY SIGNIFICANT" OrderNumber="2">
               <Decode>
                  <TranslatedText>Abnormal, not clinically significant</TranslatedText>
               </Decode>
            </CodeListItem>
            <CodeListItem CodedValue="ABNORMAL - CLINICALLY SIGNIFICANT" OrderNumber="3">
               <Decode>
                  <TranslatedText>Abnormal, clinically significant</TranslatedText>
               </Decode>
            </CodeListItem>
         </CodeList>
         <CodeList OID="CL.C66729.ROUTE.X1" Name="Route of Administration Response 14 items"
                   DataType="text">
            <CodeListItem CodedValue="ORAL" OrderNumber="1">
               <Decode>
                  <TranslatedText>Oral</TranslatedText>
               </Decode>
               <Alias Context="nci:ExtCodeID" Name="C38288"/>
            </CodeListItem>
            <CodeListItem CodedValue="TOPICAL" OrderNumber="2">
               <Decode>
                  <TranslatedText>Topical</TranslatedText>
               </Decode>
               <Alias Context="nci:ExtCodeID" Name="C38304"/>
            </CodeListItem>
            <CodeListItem CodedValue="SUBCUTANEOUS" OrderNumber="3">
               <Decode>
                  <TranslatedText>Subcutaneous</TranslatedText>
               </Decode>
               <Alias Context="nci:ExtCodeID" Name="C38299"/>
            </CodeListItem>
            <CodeListItem CodedValue="TRANSDERMAL" OrderNumber="4">
               <Decode>
                  <TranslatedText>Transdermal</TranslatedText>
               </Decode>
               <Alias Context="nci:ExtCodeID" Name="C38305"/>
            </CodeListItem>
            <CodeListItem CodedValue="INTRAOCULAR" OrderNumber="5">
               <Decode>
                  <TranslatedText>Intraocular</TranslatedText>
               </Decode>
               <Alias Context="nci:ExtCodeID" Name="C38255"/>
            </CodeListItem>
            <CodeListItem CodedValue="INTRAMUSCULAR" OrderNumber="6">
               <Decode>
                  <TranslatedText>Intramuscular</TranslatedText>
               </Decode>
               <Alias Context="nci:ExtCodeID" Name="C28161"/>
            </CodeListItem>
            <CodeListItem CodedValue="RESPIRATORY (INHALATION)" OrderNumber="7">
               <Decode>
                  <TranslatedText>Respiratory (inhalation)</TranslatedText>
               </Decode>
               <Alias Context="nci:ExtCodeID" Name="C38216"/>
            </CodeListItem>
            <CodeListItem CodedValue="INTRALESIONAL" OrderNumber="8">
               <Decode>
                  <TranslatedText>Intralesional</TranslatedText>
               </Decode>
               <Alias Context="nci:ExtCodeID" Name="C38250"/>
            </CodeListItem>
            <CodeListItem CodedValue="INTRAPERITONEAL" OrderNumber="9">
               <Decode>
                  <TranslatedText>Intraperitoneal</TranslatedText>
               </Decode>
               <Alias Context="nci:ExtCodeID" Name="C38258"/>
            </CodeListItem>
            <CodeListItem CodedValue="NASAL" OrderNumber="10">
               <Decode>
                  <TranslatedText>Nasal</TranslatedText>
               </Decode>
               <Alias Context="nci:ExtCodeID" Name="C38284"/>
            </CodeListItem>
            <CodeListItem CodedValue="VAGINAL" OrderNumber="11">
               <Decode>
                  <TranslatedText>Vaginal</TranslatedText>
               </Decode>
               <Alias Context="nci:ExtCodeID" Name="C38313"/>
            </CodeListItem>
            <CodeListItem CodedValue="RECTAL" OrderNumber="12">
               <Decode>
                  <TranslatedText>Rectal</TranslatedText>
               </Decode>
               <Alias Context="nci:ExtCodeID" Name="C38295"/>
            </CodeListItem>
            <CodeListItem CodedValue="INTRAVENOUS" OrderNumber="13">
               <Decode>
                  <TranslatedText>Intravenous</TranslatedText>
               </Decode>
               <Alias Context="nci:ExtCodeID" Name="C38276"/>
            </CodeListItem>
            <CodeListItem CodedValue="OTHER" OrderNumber="14">
               <Decode>
                  <TranslatedText>Other</TranslatedText>
               </Decode>
            </CodeListItem>
            <Alias Context="nci:ExtCodeID" Name="C66729"/>
         </CodeList>
         <CodeList OID="cl.aeacnoth"
                   Name="Other action taken (None Concomitant Medication Concomitant Procedure)"
                   DataType="text">
            <CodeListItem CodedValue="NONE" OrderNumber="1">
               <Decode>
                  <TranslatedText>None</TranslatedText>
               </Decode>
            </CodeListItem>
            <CodeListItem CodedValue="CONCOMITANT MEDICATION" OrderNumber="2">
               <Decode>
                  <TranslatedText>Concomitant medication</TranslatedText>
               </Decode>
            </CodeListItem>
            <CodeListItem CodedValue="CONCURRENT PROCEDURE" OrderNumber="3">
               <Decode>
                  <TranslatedText>Concurrent procedure</TranslatedText>
               </Decode>
            </CodeListItem>
         </CodeList>
         <CodeList OID="CL.C74456.LOC.X13" Name="Anatomical Location AE" DataType="text">
            <CodeListItem CodedValue="NOT APPLICABLE" OrderNumber="1">
               <Decode>
                  <TranslatedText>NA (Non-cutaneous)</TranslatedText>
               </Decode>
            </CodeListItem>
            <CodeListItem CodedValue="BACK" OrderNumber="2">
               <Decode>
                  <TranslatedText>Back</TranslatedText>
               </Decode>
               <Alias Context="nci:ExtCodeID" Name="C13062"/>
            </CodeListItem>
            <CodeListItem CodedValue="SCALP" OrderNumber="3">
               <Decode>
                  <TranslatedText>Scalp</TranslatedText>
               </Decode>
               <Alias Context="nci:ExtCodeID" Name="C89807"/>
            </CodeListItem>
            <CodeListItem CodedValue="FACE" OrderNumber="4">
               <Decode>
                  <TranslatedText>Face</TranslatedText>
               </Decode>
               <Alias Context="nci:ExtCodeID" Name="C13071"/>
            </CodeListItem>
            <CodeListItem CodedValue="CHEST" OrderNumber="5">
               <Decode>
                  <TranslatedText>Chest</TranslatedText>
               </Decode>
               <Alias Context="nci:ExtCodeID" Name="C25389"/>
            </CodeListItem>
            <CodeListItem CodedValue="ARM" OrderNumber="6">
               <Decode>
                  <TranslatedText>Arm</TranslatedText>
               </Decode>
               <Alias Context="nci:ExtCodeID" Name="C32141"/>
            </CodeListItem>
            <CodeListItem CodedValue="LEG" OrderNumber="7">
               <Decode>
                  <TranslatedText>Leg</TranslatedText>
               </Decode>
               <Alias Context="nci:ExtCodeID" Name="C32974"/>
            </CodeListItem>
            <CodeListItem CodedValue="TRUNK" OrderNumber="8">
               <Decode>
                  <TranslatedText>Trunk</TranslatedText>
               </Decode>
               <Alias Context="nci:ExtCodeID" Name="C33816"/>
            </CodeListItem>
            <CodeListItem CodedValue="LIMB" OrderNumber="9">
               <Decode>
                  <TranslatedText>Limb</TranslatedText>
               </Decode>
               <Alias Context="nci:ExtCodeID" Name="C12429"/>
            </CodeListItem>
            <CodeListItem CodedValue="SITE 1" OrderNumber="10">
               <Decode>
                  <TranslatedText>Site 1</TranslatedText>
               </Decode>
            </CodeListItem>
            <CodeListItem CodedValue="SITE 2" OrderNumber="11">
               <Decode>
                  <TranslatedText>Site 2</TranslatedText>
               </Decode>
            </CodeListItem>
            <CodeListItem CodedValue="SITE 3" OrderNumber="12">
               <Decode>
                  <TranslatedText>Site 3</TranslatedText>
               </Decode>
            </CodeListItem>
            <CodeListItem CodedValue="SITE 4" OrderNumber="13">
               <Decode>
                  <TranslatedText>Site 4</TranslatedText>
               </Decode>
            </CodeListItem>
            <Alias Context="nci:ExtCodeID" Name="C74456"/>
         </CodeList>
         <CodeList OID="cl.ae_aereltrt" Name="Presence of AE relative to Treatment Area"
                   DataType="text">
            <CodeListItem CodedValue="NON-CUTANEOUS" OrderNumber="1">
               <Decode>
                  <TranslatedText>Non-cutaneous</TranslatedText>
               </Decode>
            </CodeListItem>
            <CodeListItem CodedValue="LESIONAL/PERILISIONAL" OrderNumber="2">
               <Decode>
                  <TranslatedText>Lesional/perilesional</TranslatedText>
               </Decode>
            </CodeListItem>
            <CodeListItem CodedValue="DISTANT" OrderNumber="3">
               <Decode>
                  <TranslatedText>Distant</TranslatedText>
               </Decode>
            </CodeListItem>
            <CodeListItem CodedValue="INSIDE TREATMENT AREA" OrderNumber="4">
               <Decode>
                  <TranslatedText>Inside treatment area</TranslatedText>
               </Decode>
            </CodeListItem>
            <CodeListItem CodedValue="OUTSIDE TREATMENT AREA" OrderNumber="5">
               <Decode>
                  <TranslatedText>Outside treatment area</TranslatedText>
               </Decode>
            </CodeListItem>
            <CodeListItem CodedValue="APPLICATION AREA" OrderNumber="6">
               <Decode>
                  <TranslatedText>Application area</TranslatedText>
               </Decode>
            </CodeListItem>
         </CodeList>
         <CodeList OID="CL.C66742.NY" Name="No Yes Response" DataType="text">
            <CodeListItem CodedValue="Y" OrderNumber="1">
               <Decode>
                  <TranslatedText>Yes</TranslatedText>
               </Decode>
               <Alias Context="nci:ExtCodeID" Name="C49488"/>
            </CodeListItem>
            <CodeListItem CodedValue="N" OrderNumber="2">
               <Decode>
                  <TranslatedText>No</TranslatedText>
               </Decode>
               <Alias Context="nci:ExtCodeID" Name="C49487"/>
            </CodeListItem>
            <CodeListItem CodedValue="U" OrderNumber="3">
               <Decode>
                  <TranslatedText>Unknown</TranslatedText>
               </Decode>
               <Alias Context="nci:ExtCodeID" Name="C17998"/>
            </CodeListItem>
            <CodeListItem CodedValue="NA" OrderNumber="4">
               <Decode>
                  <TranslatedText>Not applicable</TranslatedText>
               </Decode>
               <Alias Context="nci:ExtCodeID" Name="C48660"/>
            </CodeListItem>
            <Alias Context="nci:ExtCodeID" Name="C66742"/>
         </CodeList>
         <CodeList OID="cl.aerel2" Name="Causality" DataType="text">
            <CodeListItem CodedValue="PROBABLY RELATED" OrderNumber="1">
               <Decode>
                  <TranslatedText>Probably related</TranslatedText>
               </Decode>
            </CodeListItem>
            <CodeListItem CodedValue="POSSIBLY RELATED" OrderNumber="2">
               <Decode>
                  <TranslatedText>Possibly related</TranslatedText>
               </Decode>
            </CodeListItem>
            <CodeListItem CodedValue="NOT RELATED" OrderNumber="3">
               <Decode>
                  <TranslatedText>Not related</TranslatedText>
               </Decode>
            </CodeListItem>
         </CodeList>
         <CodeList OID="CL.C66726.FRM.X1" Name="Pharmaceutical Dosage Form" DataType="text">
            <CodeListItem CodedValue="CREAM" OrderNumber="1">
               <Decode>
                  <TranslatedText>Cream</TranslatedText>
               </Decode>
               <Alias Context="nci:ExtCodeID" Name="C28944"/>
            </CodeListItem>
            <CodeListItem CodedValue="LOTION" OrderNumber="2">
               <Decode>
                  <TranslatedText>Lotion</TranslatedText>
               </Decode>
               <Alias Context="nci:ExtCodeID" Name="C29167"/>
            </CodeListItem>
            <CodeListItem CodedValue="OINTMENT" OrderNumber="3">
               <Decode>
                  <TranslatedText>Ointment</TranslatedText>
               </Decode>
               <Alias Context="nci:ExtCodeID" Name="C42966"/>
            </CodeListItem>
            <CodeListItem CodedValue="OTHER" OrderNumber="4">
               <Decode>
                  <TranslatedText>Other</TranslatedText>
               </Decode>
            </CodeListItem>
            <Alias Context="nci:ExtCodeID" Name="C66726"/>
         </CodeList>
         <CodeList OID="CL.C74456.LOC.X1"
                   Name="Anatomical Location Head Trunk Limb Upper and Lower"
                   DataType="text">
            <CodeListItem CodedValue="HEAD" OrderNumber="1">
               <Decode>
                  <TranslatedText>Head</TranslatedText>
               </Decode>
               <Alias Context="nci:ExtCodeID" Name="C12419"/>
            </CodeListItem>
            <CodeListItem CodedValue="TRUNK" OrderNumber="2">
               <Decode>
                  <TranslatedText>Trunk</TranslatedText>
               </Decode>
               <Alias Context="nci:ExtCodeID" Name="C33816"/>
            </CodeListItem>
            <CodeListItem CodedValue="LIMB, UPPER" OrderNumber="3">
               <Decode>
                  <TranslatedText>Upper limb</TranslatedText>
               </Decode>
               <Alias Context="nci:ExtCodeID" Name="C12671"/>
            </CodeListItem>
            <CodeListItem CodedValue="LIMB, LOWER" OrderNumber="4">
               <Decode>
                  <TranslatedText>Lower limb</TranslatedText>
               </Decode>
               <Alias Name="C12742" Context="nci:ExtCodeID"/>
            </CodeListItem>
            <Alias Context="nci:ExtCodeID" Name="C74456"/>
         </CodeList>
         <CodeList OID="cl.ae_occur" Name="Before After IMP" DataType="text">
            <CodeListItem CodedValue="BEFORE DOSING" OrderNumber="1">
               <Decode>
                  <TranslatedText>Before dosing</TranslatedText>
               </Decode>
            </CodeListItem>
            <CodeListItem CodedValue="AFTER DOSING" OrderNumber="2">
               <Decode>
                  <TranslatedText>After dosing</TranslatedText>
               </Decode>
            </CodeListItem>
            <CodeListItem CodedValue="NA" OrderNumber="3">
               <Decode>
                  <TranslatedText>Not applicable</TranslatedText>
               </Decode>
            </CodeListItem>
         </CodeList>
         <CodeList OID="CL.C71620.UNIT.X12" Name="Unit" DataType="text">
            <CodeListItem CodedValue="ug" OrderNumber="1">
               <Decode>
                  <TranslatedText>mcg</TranslatedText>
               </Decode>
               <Alias Context="nci:ExtCodeID" Name="C48152"/>
            </CodeListItem>
            <CodeListItem CodedValue="mg" OrderNumber="2">
               <Decode>
                  <TranslatedText>mg</TranslatedText>
               </Decode>
               <Alias Context="nci:ExtCodeID" Name="C28253"/>
            </CodeListItem>
            <CodeListItem CodedValue="g" OrderNumber="3">
               <Decode>
                  <TranslatedText>g</TranslatedText>
               </Decode>
               <Alias Context="nci:ExtCodeID" Name="C48155"/>
            </CodeListItem>
            <CodeListItem CodedValue="mL" OrderNumber="4">
               <Decode>
                  <TranslatedText>Ml</TranslatedText>
               </Decode>
               <Alias Context="nci:ExtCodeID" Name="C28254"/>
            </CodeListItem>
            <CodeListItem CodedValue="APPLICATION" OrderNumber="5">
               <Decode>
                  <TranslatedText>Application</TranslatedText>
               </Decode>
               <Alias Context="nci:ExtCodeID" Name="C25397"/>
            </CodeListItem>
            <CodeListItem CodedValue="IU" OrderNumber="6">
               <Decode>
                  <TranslatedText>International Unit (IU)</TranslatedText>
               </Decode>
               <Alias Context="nci:ExtCodeID" Name="C48579"/>
            </CodeListItem>
            <CodeListItem CodedValue="TABLET" OrderNumber="7">
               <Decode>
                  <TranslatedText>Tablet</TranslatedText>
               </Decode>
               <Alias Context="nci:ExtCodeID" Name="C48542"/>
            </CodeListItem>
            <CodeListItem CodedValue="CAPSULE" OrderNumber="8">
               <Decode>
                  <TranslatedText>Capsule</TranslatedText>
               </Decode>
               <Alias Context="nci:ExtCodeID" Name="C48480"/>
            </CodeListItem>
            <CodeListItem CodedValue="OTHER" OrderNumber="9">
               <Decode>
                  <TranslatedText>Other</TranslatedText>
               </Decode>
            </CodeListItem>
            <Alias Context="nci:ExtCodeID" Name="C71620"/>
         </CodeList>
         <CodeList OID="CL.C66768.OUT" Name="Outcome of Event" DataType="text">
            <CodeListItem CodedValue="FATAL" OrderNumber="1">
               <Decode>
                  <TranslatedText>Fatal</TranslatedText>
               </Decode>
               <Alias Context="nci:ExtCodeID" Name="C48275"/>
            </CodeListItem>
            <CodeListItem CodedValue="NOT RECOVERED/NOT RESOLVED" OrderNumber="2">
               <Decode>
                  <TranslatedText>Not recovered/not resolved</TranslatedText>
               </Decode>
               <Alias Context="nci:ExtCodeID" Name="C49494"/>
            </CodeListItem>
            <CodeListItem CodedValue="RECOVERING/RESOLVING" OrderNumber="3">
               <Decode>
                  <TranslatedText>Recovering/resolving</TranslatedText>
               </Decode>
               <Alias Context="nci:ExtCodeID" Name="C49496"/>
            </CodeListItem>
            <CodeListItem CodedValue="RECOVERED/RESOLVED" OrderNumber="4">
               <Decode>
                  <TranslatedText>Recovered/resolved</TranslatedText>
               </Decode>
               <Alias Context="nci:ExtCodeID" Name="C49498"/>
            </CodeListItem>
            <CodeListItem CodedValue="RECOVERED/RESOLVED WITH SEQUELAE" OrderNumber="5">
               <Decode>
                  <TranslatedText>Recovered/resolved with sequelae</TranslatedText>
               </Decode>
               <Alias Context="nci:ExtCodeID" Name="C49495"/>
            </CodeListItem>
            <CodeListItem CodedValue="UNKNOWN" OrderNumber="6">
               <Decode>
                  <TranslatedText>Unknown</TranslatedText>
               </Decode>
               <Alias Context="nci:ExtCodeID" Name="C17998"/>
            </CodeListItem>
            <Alias Context="nci:ExtCodeID" Name="C66768"/>
         </CodeList>
         <CodeList OID="CL.C71113.FREQ.X1" Name="Frequency inc As Needed" DataType="text">
            <CodeListItem CodedValue="PRN" OrderNumber="1">
               <Decode>
                  <TranslatedText>As needed (PRN)</TranslatedText>
               </Decode>
               <Alias Context="nci:ExtCodeID" Name="C64499"/>
            </CodeListItem>
            <CodeListItem CodedValue="QD" OrderNumber="2">
               <Decode>
                  <TranslatedText>Daily (QD)</TranslatedText>
               </Decode>
               <Alias Context="nci:ExtCodeID" Name="C25473"/>
            </CodeListItem>
            <CodeListItem CodedValue="BID" OrderNumber="3">
               <Decode>
                  <TranslatedText>Twice daily (BID)</TranslatedText>
               </Decode>
               <Alias Context="nci:ExtCodeID" Name="C64496"/>
            </CodeListItem>
            <CodeListItem CodedValue="TID" OrderNumber="4">
               <Decode>
                  <TranslatedText>Three times per day (TID)</TranslatedText>
               </Decode>
               <Alias Context="nci:ExtCodeID" Name="C64527"/>
            </CodeListItem>
            <CodeListItem CodedValue="QID" OrderNumber="5">
               <Decode>
                  <TranslatedText>Four times per day</TranslatedText>
               </Decode>
               <Alias Context="nci:ExtCodeID" Name="C64530"/>
            </CodeListItem>
            <CodeListItem CodedValue="EVERY WEEK" OrderNumber="6">
               <Decode>
                  <TranslatedText>Weekly (QS)</TranslatedText>
               </Decode>
               <Alias Context="nci:ExtCodeID" Name="C67069"/>
            </CodeListItem>
            <CodeListItem CodedValue="QM" OrderNumber="7">
               <Decode>
                  <TranslatedText>Monthly (QM)</TranslatedText>
               </Decode>
               <Alias Context="nci:ExtCodeID" Name="C64498"/>
            </CodeListItem>
            <CodeListItem CodedValue="ONCE" OrderNumber="8">
               <Decode>
                  <TranslatedText>Once</TranslatedText>
               </Decode>
               <Alias Context="nci:ExtCodeID" Name="C64576"/>
            </CodeListItem>
            <CodeListItem CodedValue="OTHER" OrderNumber="9">
               <Decode>
                  <TranslatedText>Other</TranslatedText>
               </Decode>
            </CodeListItem>
            <Alias Context="nci:ExtCodeID" Name="C71113"/>
         </CodeList>
         <CodeList OID="cl.saecriteria"
                   Name="SAE Criteria (Fatal Life-threatening Hospitalisation (initial or prolonged) Persistent or significant disability/incapacity A Congenital anormaly/birth defect Other medically important condition)"
                   DataType="text">
            <CodeListItem CodedValue="1" OrderNumber="1">
               <Decode>
                  <TranslatedText>Death</TranslatedText>
               </Decode>
            </CodeListItem>
            <CodeListItem CodedValue="2" OrderNumber="2">
               <Decode>
                  <TranslatedText>Life-threatening</TranslatedText>
               </Decode>
            </CodeListItem>
            <CodeListItem CodedValue="3" OrderNumber="3">
               <Decode>
                  <TranslatedText>In-patient hospitalisation/prolongation of existing hospitalisation</TranslatedText>
               </Decode>
            </CodeListItem>
            <CodeListItem CodedValue="4" OrderNumber="4">
               <Decode>
                  <TranslatedText>Persistent or significant disability/incapacity</TranslatedText>
               </Decode>
            </CodeListItem>
            <CodeListItem CodedValue="5" OrderNumber="5">
               <Decode>
                  <TranslatedText>Congenital anomaly/birth defect</TranslatedText>
               </Decode>
            </CodeListItem>
            <CodeListItem CodedValue="6" OrderNumber="6">
               <Decode>
                  <TranslatedText>Other medically important condition</TranslatedText>
               </Decode>
            </CodeListItem>
         </CodeList>
         <CodeList OID="CL.C66767.ACN" Name="Action Taken with Study Treatment" DataType="text">
            <CodeListItem CodedValue="DOSE NOT CHANGED" OrderNumber="1">
               <Decode>
                  <TranslatedText>Dose not changed</TranslatedText>
               </Decode>
               <Alias Context="nci:ExtCodeID" Name="C49504"/>
            </CodeListItem>
            <CodeListItem CodedValue="DOSE REDUCED" OrderNumber="2">
               <Decode>
                  <TranslatedText>Dose reduced</TranslatedText>
               </Decode>
               <Alias Context="nci:ExtCodeID" Name="C49505"/>
            </CodeListItem>
            <CodeListItem CodedValue="DOSE INCREASED" OrderNumber="3">
               <Decode>
                  <TranslatedText>Dose increased</TranslatedText>
               </Decode>
               <Alias Context="nci:ExtCodeID" Name="C49503"/>
            </CodeListItem>
            <CodeListItem CodedValue="DRUG INTERRUPTED" OrderNumber="4">
               <Decode>
                  <TranslatedText>Drug interrupted</TranslatedText>
               </Decode>
               <Alias Context="nci:ExtCodeID" Name="C49501"/>
            </CodeListItem>
            <CodeListItem CodedValue="DRUG WITHDRAWN" OrderNumber="5">
               <Decode>
                  <TranslatedText>Drug withdrawn</TranslatedText>
               </Decode>
               <Alias Context="nci:ExtCodeID" Name="C49502"/>
            </CodeListItem>
            <CodeListItem CodedValue="NOT APPLICABLE" OrderNumber="6">
               <Decode>
                  <TranslatedText>Not applicable</TranslatedText>
               </Decode>
               <Alias Context="nci:ExtCodeID" Name="C48660"/>
            </CodeListItem>
            <CodeListItem CodedValue="UNKNOWN" OrderNumber="7">
               <Decode>
                  <TranslatedText>Unknown</TranslatedText>
               </Decode>
               <Alias Context="nci:ExtCodeID" Name="C17998"/>
            </CodeListItem>
            <Alias Context="nci:ExtCodeID" Name="C66767"/>
         </CodeList>
         <CodeList OID="CL.C101834.NORMABNM.X1"
                   Name="Normal Abnormal Response Normal Abnormal only"
                   DataType="text">
            <CodeListItem CodedValue="NORMAL" OrderNumber="1">
               <Decode>
                  <TranslatedText>Normal</TranslatedText>
               </Decode>
               <Alias Context="nci:ExtCodeID" Name="C14165"/>
            </CodeListItem>
            <CodeListItem CodedValue="ABNORMAL" OrderNumber="2">
               <Decode>
                  <TranslatedText>Abnormal</TranslatedText>
               </Decode>
               <Alias Context="nci:ExtCodeID" Name="C25401"/>
            </CodeListItem>
            <Alias Context="nci:ExtCodeID" Name="C101834"/>
         </CodeList>
         <CodeList OID="CL.C102580.LBSTRESC.X1"
                   Name="Laboratory Test Standard Character Result - Postive Negative"
                   DataType="text">
            <CodeListItem CodedValue="POSITIVE" OrderNumber="1">
               <Decode>
                  <TranslatedText>Positive</TranslatedText>
               </Decode>
               <Alias Context="nci:ExtCodeID" Name="C38758"/>
            </CodeListItem>
            <CodeListItem CodedValue="NEGATIVE" OrderNumber="2">
               <Decode>
                  <TranslatedText>Negative</TranslatedText>
               </Decode>
               <Alias Context="nci:ExtCodeID" Name="C38757"/>
            </CodeListItem>
            <Alias Context="nci:ExtCodeID" Name="C102580"/>
         </CodeList>
         <CodeList OID="CL.C66742.NY.X4" Name="No Yes Response Yes no NA" DataType="text">
            <CodeListItem CodedValue="Y" OrderNumber="1">
               <Decode>
                  <TranslatedText>Yes</TranslatedText>
               </Decode>
               <Alias Context="nci:ExtCodeID" Name="C49488"/>
            </CodeListItem>
            <CodeListItem CodedValue="N" OrderNumber="2">
               <Decode>
                  <TranslatedText>No</TranslatedText>
               </Decode>
               <Alias Context="nci:ExtCodeID" Name="C49487"/>
            </CodeListItem>
            <CodeListItem CodedValue="NA" OrderNumber="3">
               <Decode>
                  <TranslatedText>Not applicable</TranslatedText>
               </Decode>
               <Alias Context="nci:ExtCodeID" Name="C48660"/>
            </CodeListItem>
            <Alias Context="nci:ExtCodeID" Name="C66742"/>
         </CodeList>
         <CodeList OID="CL.C66770.VSRESU.X2" Name="Units for Vital Signs Results BMI"
                   DataType="text">
            <CodeListItem CodedValue="kg/m2" OrderNumber="1">
               <Decode>
                  <TranslatedText>kg/m2</TranslatedText>
               </Decode>
               <Alias Context="nci:ExtCodeID" Name="C49671"/>
            </CodeListItem>
            <Alias Context="nci:ExtCodeID" Name="C66770"/>
         </CodeList>
         <CodeList OID="CL.C66770.VSRESU.X3" Name="Units for Vital Signs Results Height"
                   DataType="text">
            <CodeListItem CodedValue="cm" OrderNumber="1">
               <Decode>
                  <TranslatedText>cm</TranslatedText>
               </Decode>
               <Alias Context="nci:ExtCodeID" Name="C49668"/>
            </CodeListItem>
            <CodeListItem CodedValue="in" OrderNumber="2">
               <Decode>
                  <TranslatedText>in</TranslatedText>
               </Decode>
               <Alias Context="nci:ExtCodeID" Name="C48500"/>
            </CodeListItem>
            <Alias Context="nci:ExtCodeID" Name="C66770"/>
         </CodeList>
         <CodeList OID="CL.C66770.VSRESU.X7" Name="Units for Vital Signs Results Weight"
                   DataType="text">
            <CodeListItem CodedValue="kg" OrderNumber="1">
               <Decode>
                  <TranslatedText>kg</TranslatedText>
               </Decode>
               <Alias Context="nci:ExtCodeID" Name="C28252"/>
            </CodeListItem>
            <CodeListItem CodedValue="LB" OrderNumber="2">
               <Decode>
                  <TranslatedText>lb</TranslatedText>
               </Decode>
               <Alias Context="nci:ExtCodeID" Name="C48531"/>
            </CodeListItem>
            <Alias Context="nci:ExtCodeID" Name="C66770"/>
         </CodeList>
         <CodeList OID="CL.C74457.RACE.X2" Name="Race Asian Other" DataType="text">
            <CodeListItem CodedValue="WHITE" OrderNumber="1">
               <Decode>
                  <TranslatedText>White</TranslatedText>
               </Decode>
               <Alias Context="nci:ExtCodeID" Name="C41261"/>
            </CodeListItem>
            <CodeListItem CodedValue="BLACK OR AFRICAN AMERICAN" OrderNumber="2">
               <Decode>
                  <TranslatedText>Black or African American</TranslatedText>
               </Decode>
               <Alias Context="nci:ExtCodeID" Name="C16352"/>
            </CodeListItem>
            <CodeListItem CodedValue="ASIAN" OrderNumber="3">
               <Decode>
                  <TranslatedText>Asian Japanese</TranslatedText>
               </Decode>
               <Alias Context="nci:ExtCodeID" Name="C41260"/>
            </CodeListItem>
            <CodeListItem CodedValue="ASIANd" OrderNumber="4">
               <Decode>
                  <TranslatedText>Asian Other</TranslatedText>
               </Decode>
            </CodeListItem>
            <CodeListItem CodedValue="AMERICAN INDIAN OR ALASKA NATIVE" OrderNumber="5">
               <Decode>
                  <TranslatedText>American Indian or Alaska Native</TranslatedText>
               </Decode>
               <Alias Context="nci:ExtCodeID" Name="C41259"/>
            </CodeListItem>
            <CodeListItem CodedValue="NATIVE HAWAIIAN OR OTHER PACIFIC ISLANDER" OrderNumber="6">
               <Decode>
                  <TranslatedText>Native Hawaiian or Other Pacific Islander</TranslatedText>
               </Decode>
               <Alias Context="nci:ExtCodeID" Name="C41219"/>
            </CodeListItem>
            <CodeListItem CodedValue="OTHER" OrderNumber="7">
               <Decode>
                  <TranslatedText>Other</TranslatedText>
               </Decode>
            </CodeListItem>
            <Alias Context="nci:ExtCodeID" Name="C74457"/>
         </CodeList>
         <CodeList OID="CL.C66790.ETHNIC.X1" Name="Ethnic Group Hispanic" DataType="text">
            <CodeListItem CodedValue="HISPANIC OR LATINO" OrderNumber="1">
               <Decode>
                  <TranslatedText>Hispanic or Latino</TranslatedText>
               </Decode>
               <Alias Context="nci:ExtCodeID" Name="C17459"/>
            </CodeListItem>
            <CodeListItem CodedValue="NOT HISPANIC OR LATINO" OrderNumber="2">
               <Decode>
                  <TranslatedText>Not Hispanic or Latino</TranslatedText>
               </Decode>
               <Alias Context="nci:ExtCodeID" Name="C41222"/>
            </CodeListItem>
            <Alias Context="nci:ExtCodeID" Name="C66790"/>
         </CodeList>
         <CodeList OID="CL.C66731.SEX.X1" Name="Sex M F only" DataType="text">
            <CodeListItem CodedValue="M" OrderNumber="1">
               <Decode>
                  <TranslatedText>Male</TranslatedText>
               </Decode>
               <Alias Context="nci:ExtCodeID" Name="C20197"/>
            </CodeListItem>
            <CodeListItem CodedValue="F" OrderNumber="2">
               <Decode>
                  <TranslatedText>Female</TranslatedText>
               </Decode>
               <Alias Context="nci:ExtCodeID" Name="C16576"/>
            </CodeListItem>
            <Alias Context="nci:ExtCodeID" Name="C66731"/>
         </CodeList>
         <CodeList OID="CL.C74457.RACE.X1" Name="Race 6 items" DataType="text">
            <CodeListItem CodedValue="WHITE" OrderNumber="1">
               <Decode>
                  <TranslatedText>White</TranslatedText>
               </Decode>
               <Alias Context="nci:ExtCodeID" Name="C41261"/>
            </CodeListItem>
            <CodeListItem CodedValue="BLACK OR AFRICAN AMERICAN" OrderNumber="2">
               <Decode>
                  <TranslatedText>Black or African American</TranslatedText>
               </Decode>
               <Alias Context="nci:ExtCodeID" Name="C16352"/>
            </CodeListItem>
            <CodeListItem CodedValue="ASIAN" OrderNumber="3">
               <Decode>
                  <TranslatedText>Asian</TranslatedText>
               </Decode>
               <Alias Context="nci:ExtCodeID" Name="C41260"/>
            </CodeListItem>
            <CodeListItem CodedValue="AMERICAN INDIAN OR ALASKA NATIVE" OrderNumber="4">
               <Decode>
                  <TranslatedText>American Indian or Alaska Native</TranslatedText>
               </Decode>
               <Alias Context="nci:ExtCodeID" Name="C41259"/>
            </CodeListItem>
            <CodeListItem CodedValue="NATIVE HAWAIIAN OR OTHER PACIFIC ISLANDER" OrderNumber="5">
               <Decode>
                  <TranslatedText>Native Hawaiian or Other Pacific Islander</TranslatedText>
               </Decode>
               <Alias Context="nci:ExtCodeID" Name="C41219"/>
            </CodeListItem>
            <CodeListItem CodedValue="OTHER" OrderNumber="6">
               <Decode>
                  <TranslatedText>Other</TranslatedText>
               </Decode>
            </CodeListItem>
            <Alias Context="nci:ExtCodeID" Name="C74457"/>
         </CodeList>
         <CodeList OID="CL.C66781.AGEU.X1" Name="Age Unit Years" DataType="text">
            <CodeListItem CodedValue="YEARS" OrderNumber="1">
               <Decode>
                  <TranslatedText>Year(s)</TranslatedText>
               </Decode>
               <Alias Context="nci:ExtCodeID" Name="C29848"/>
            </CodeListItem>
            <Alias Context="nci:ExtCodeID" Name="C66781"/>
         </CodeList>
      </MetaDataVersion>
   </Study>
</ODM>
